Folder: diffpy.srxplanar/docs/examples/data

Note: README.rst
diffpy.srxplanar
========================================================================

diffpy.srxplanar package provides 2D diffraction image integration using
non splitting pixel algorithm. And it can estimate and propagate statistic
uncertainty of raw counts and integrated intensity. If you are using this
software. If you use this program to do productive scientific research that
leads to publication, we kindly ask that you acknowledge use of the program
by citing the following paper in your publication:

    Xiaohao Yang, Pavol Juhas, Simon J. L. Billinge, On the estimation of
    statistical uncertainties on powder diffraction and small angle
    scattering data from 2-D x-ray detectors, arXiv:1309.3614

To learn more about diffpy.srxplanar library, see the examples directory
included in this distribution or the API documentation at

http://diffpy.github.io/diffpy.srxplanar/

REQUIREMENTS
------------------------------------------------------------------------

The diffpy.srxplanar requires Python 2.6 or 2.7 and the following software:

* `setuptools`  >=0.61(https://pypi.python.org/pypi/setuptools)
* `numpy`       >=1.60(http://www.numpy.org/)
* `scipy`       >=1.10(www.scipy.org/)
* `FabIO`       >=0.80(http://sourceforge.net/projects/fable/files/fabio/)

If your python version < 2.7 (these two packages are included in 2.7 but not in 2.6)

* `ordereddict` https://pypi.python.org/pypi/ordereddict
* `argparse`    https://pypi.python.org/pypi/argparse

On Ubuntu Linux the part of required software can be easily installed using
the system package manager::

    sudo aptitude install \
        python-setuptools python-numpy python-scipy

For Mac OS X machine with the MacPorts package manager one could do::

    sudo port install \
        python27 py27-setuptools py27-numpy py27-scipy

When installing with MacPorts, make sure the MacPorts bin directory is the
first in the system PATH and that python27 is selected as the default
Python version in MacPorts::

    sudo port select --set python python27

For other Linux distributions use their respective package manager; note
the packages may have slightly different names. diffpy.srxplanar should work
on other Unix-like operating systems as well.  Please, search the
web for instructions how to install external dependencies on your particular
system.

For other packages, please go to the webpage list above to download and install.


INSTALLATION
------------------------------------------------------------------------

To install the diffpy.srxplanar package::

    python setup.py install

By default the files are installed in the system directories, which are
usually only writeable by the root.  See the usage info
"./setup.py install --help" for options to install as a normal user under
different location.  Note that installation to non-standard directories may
require adjustments to the PATH and PYTHONPATH environment variables.

DEVELOPMENT
------------------------------------------------------

File: KFe2As2-00838_fit2d.chi
D:\workspace\KFe2As2-00838.tif: 2-theta Scan
2-Theta Angle (Degrees)
Intensity
       1662
 0.13886  1620.36
 0.290344  4189.87
 0.441828  11294.7
 0.593312  10813.6
 0.744796  11056.8
 0.89628  72601.1
 1.04776  9285.79
 1.19925  8107.89
 1.35073  7384.17
 1.50222  6846.92
 1.6537  17180
 1.80518  7540.9
 1.95667  8277.37
 2.10815  93289.4
 2.25963  12920.5
 2.41112  21566.7
 2.5626  8111.3
 2.71409  10463.3
 2.86557  39342
 3.01705  12677.2
 3.16854  22016.5
 3.32002  18301.7
 3.47151  30523.9
 3.62299  17142.3
 3.77447  12681.9
 3.92596  11747.7
 4.07744  4909.21
 4.22893  7150.19
 4.38041  7311.25
 4.53189  15304.5
 4.68338  8749.17
 4.83486  17633.2
 4.98635  9309.09
 5.13783  10400.4
 5.28931  8344.61
 5.4408  18602.4
 5.59228  7339.91
 5.74376  20957.6
 5.89525  8428.85
 6.04673  9324.13
 6.19822  6512.08
 6.3497  7985.14
 6.50118  7633.98
 6.65267  10059.8
 6.80415  9106.02
 6.95564  6029.49
 7.10712  7880.46
 7.2586  8512.54
 7.41009  8076.55
 7.56157  5612.69
 7.71306  5406.83
 7.86454  6066.4
 8.01602  7945.15
 8.16751  8242.53
 8.31899  6406.77
 8.47048  8103.88
 8.62196  6677.91
 8.77344  6226.27
 8.92493  4927.74
 9.07641  5258.99
 9.22789  5129.69
 9.37938  4646.11
 9.53086  6220.78
 9.68235  5135.88
 9.83383  5465.93
 9.98531  5037.72
 10.1368  5374.32
 10.2883  5431.41
 10.4398  4859.12
 10.5912  4104.92
 10.7427  4178.44
 10.8942  4929.93
 11.0457  5120.73
 11.1972  4481.53
 11.3487  4512.23
 11.5002  5025.8
 11.6516  4715.1
 11.8031  4574.31
 11.9546  3962.12
 12.1061  3563.8
 12.2576  3723.17
 12.4091  3825.01
 12.5605  3914.68
 12.712  3945.28
 12.8635  3917.16
 13.015  4042.25
 13.1665  3844.7
 13.318  3705.25
 13.4694  3763.07
 13.6209  3798.5
 13.7724  3684.26
 13.9239  3687.58
 14.0754  3635.9
 14.2269  3593.46
 14.3783  3465.12
 14.5298  3315.13
 14.6813  3298.96
 14.8328  3340.02
 14.9843  3314.7
 15.1358  3279.77
 15.2873  3225.73
 15.4387  3156.71
 15.5902  3156.89
 15.7417  3144.62
 15.8932  3112.87
 16.0447  3153.98
 16.1962  3190.32
 16.3476  3108.45
 16.4991  3074.78
 16.6506  3039.03
 16.8021  3010.5
 16.9536  3002.86
 17.1051  2936.8
 17.2565  2832.03
 17.408  2770.08
 17.5595  2754.56
 17.711  2767.1
 17.8625  2769.01
 18.014  2783.85
 18.1654  2754.93
 18.3169  2744.61
 18.4684  2728.73
 18.6199  2721.84
 18.7714  2685.1
 18.9229  2657.31
 19.0743  2620.97
 19.2258  2598.15
 19.3773  2582.54
 19.5288  2573.73
 19.6803  2551.14
 19.8318  2507.87
 19.9833  2456.06
 20.1347  2407.84
 20.2862  2409.64
 20.4377  2401.25
 20.5892  2406.87
 20.7407  2389.72
 20.8922  2380.21
 21.0436  2371.77
 21.1951  2362.22
 21.3466  2339.12
 21.4981  2317.53
 21.6496  2290.11
 21.8011  2258.98
 21.9525  2235.02
 22.104  2169.6
 22.2555  2157.92
 22.407  2155.45
 22.5585  2148.41
 22.71  2131.24
 22.8614  2113.41
 23.0129  2099.51
 23.1644  2089.53
 23.3159  2073.97
 23.4674  2070.65
 23.6189  2059.36
 23.7704  2050.94
 23.9218  2036.99
 24.0733  2022.49
 24.2248  2009.16
 24.3763  1992.21
 24.5278  1974.16
 24.6793  1958.82
 24.8307  1940.5
 24.9822  1926.76
 25.1337  1909.98
 25.2852  1894.35
 25.4367  1881.51
 25.5882  1867.98
 25.7396  1857.51
 25.8911  1846.75
 26.0426  1834.83
 26.1941  1823.58
 26.3456  1814.88
 26.4971  1800
 26.6485  1786.76
 26.8  1772.45
 26.9515  1758.97
 27.103  1745.32
 27.2545  1733.42
 27.406  1716.6
 27.5574  1707.76
 27.7089  1694.52
 27.8604  1680.91
 28.0119  1668.23
 28.1634  1646.69
 28.3149  1597.02
 28.4664  1586.52
 28.6178  1591.89
 28.7693  1587.83
 28.9208  1580.15
 29.0723  1571.43
 29.2238  1563.04
 29.3753  1555.33
 29.5267  1520.67
 29.6782  1514.85
 29.8297  1510.27
 29.9812  1497.14
 30.1327  1488.26
 30.2842  1478.47
 30.4356  1472.29
 30.5871  1458.25
 30.7386  1447.4
 30.8901  1438.23
 31.0416  1429.54
 31.1931  1422
 31.3445  1410.58
 31.496  1400.83
 31.6475  1392.7
 31.799  1383.35
 31.9505  1363.82
 32.102  1361.61
 32.2534  1351.87
 32.4049  1339.74
 32.5564  1333.06
 32.7079  1325.17
 32.8594  1318.56
 33.0109  1312.11
 33.1624  1309.6
 33.3138  1298.99
 33.4653  1293.01
 33.6168  1284.26
 33.7683  1275.83
 33.9198  1273.53
 34.0713  1263.85
 34.2227  1263.56
 34.3742  1257.53
 34.5257  1247.75
 34.6772  1212.73
 34.8287  1179.16
 34.9802  1184.81
 35.1316  1183.57
 35.2831  1179.86
 35.4346  1170.9
 35.5861  1161.73
 35.7376  1156.25
 35.8891  1145.05
 36.0405  1134.66
 36.192  1129.94
 36.3435  1117.87
 36.495  1107.13
 36.6465  1100.69
 36.798  1091.11
 36.9494  1081.19
 37.1009  1073.17
 37.2524  1067.16
 37.4039  1055.07
 37.5554  1049.31
 37.7069  1039.28
 37.8584  1029.99
 38.0098  1021.9
 38.1613  1013.66
 38.3128  1002.57
 38.4643  993.655
 38.6158  968.981
 38.7673  976.022
 38.9187  966.551
 39.0702  961.544
 39.2217  951.667
 39.3732  934.505
 39.5247  927.368
 39.6762  917.983
 39.8276  902.666
 39.9791  895.079
 40.1306  875.432
 40.2821  857.994
 40.4336  843.747
 40.5851  819.395
 40.7365  798.733
 40.888  755.508
 41.0395  841.022
 41.191  812.976
 41.3425  789.399
 41.494  734.801
 41.6455  646.608
 41.7969  316.29
 41.9484 -1.22387